Folder: DSC/DSCTXT (part 3)

File: 80 mW 3 cont.txt
Filename:	C:\Documents and Settings\SOON KI\Desktop\Tanner\Oligomer in EEC 6-11-21\Lightintensity PHEA-coBA in EEC 6-17-21\80 mW 3 cont.dcd
Operator ID:	AK
Sample ID:	Epoxy w/ P(HEA-coBA) 3 cont
Comment:	80.50 mW/cm2
Serial Number:
Data Collected:	6/17/2021 4:34:41 PM
Sample Weight:	3.670 mg
Validation
Validated:	No
By:
Date:
Calibration Information
Filename:	C:\Program Files\Pyris\Calibrations\Indium Temperature Calibration 2-22-2021 TG.dcc
Date/Time:
Initial Conditions
Temperature:
Y Initial:
Sample Rate:
Baseline Filename:
End Condition:	Go To Load
Total Points in Run:	24000
Method Steps:
Pre-Run Actions
	Start the Run
		Action occurs Immediately
	Switch the Gas to Nitrogen at 20.0 ml/min
		Action occurs Immediately
1)	Hold for 20.0 min at 35.00¡ÆC

1) DSC Isothermal	Time	Unsubtracted Heat Flow	Baseline Heat Flow	ProgramTemperature	Sample Temperature	Approx. Gas Flow
	0.000000	0.000000	0.000000	35	25.875	0.000000
	0.095000	0.006586	0.000000	35	25.875	0.000000
	0.190000	0.019554	0.000000	35	25.874	0.000000
	0.285000	0.031307	0.000000	35	25.874	0.000000
	0.380000	0.033941	0.000000	35	25.873	0.000000
	0.475000	0.034853	0.000000	35	25.875	0.000000
	0.570000	0.036576	0.000000	35	25.874	0.000000
	0.665000	0.038298	0.000000	35	25.874	0.000000
	0.760000	0.041236	0.000000	35	25.871	0.000000
	0.855000	0.043769	0.000000	35	25.873	0.000000
	0.950000	0.045390	0.000000	35	25.872	0.000000
	1.045000	-3.230514	0.000000	35	25.892	0.000000
	1.140000	-31.9654	0.000000	35	26.219	0.000000
	1.235000	-16.2683	0.000000	35	26.313	0.000000
	1.330000	-12.5685	0.000000	35	26.328	0.000000
	1.425000	-11.5338	0.000000	35	26.329	0.000000
	1.520000	-11.0817	0.000000	35	26.326	0.000000
	1.615000	-10.7551	0.000000	35	26.323	0.000000
	1.710000	-10.476	0.000000	35	26.321	0.000000
	1.805000	-10.2245	0.000000	35	26.32	0.000000
	1.900000	-9.987085	0.000000	35	26.317	0.000000
	1.995000	-9.769353	0.000000	35	26.315	0.000000
	2.090000	-9.560943	0.000000	35	26.313	0.000000
	2.185000	-9.361347	0.000000	35	26.314	0.000000
	2.280000	-9.172187	0.000000	35	26.312	0.000000
	2.375000	-8.986066	0.000000	35	26.311	0.000000
	2.470000	-8.805214	0.000000	35	26.309	0.000000
	2.565000	-8.630847	0.000000	35	26.309	0.000000
	2.660000	-8.458201	0.000000	35	26.309	0.000000
	2.755000	-8.293965	0.000000	35	26.306	0.000000
	2.850000	-8.130439	0.000000	35	26.306	0.000000
	2.945000	-7.975119	0.000000	35	26.305	0.000000
	3.040000	-7.825675	0.000000	35	26.305	0.000000
	3.135000	-7.680082	0.000000	35	26.305	0.000000
	3.230000	-7.542897	0.000000	35	26.304	0.000000
	3.325000	-7.410881	0.000000	35	26.302	0.000000
	3.420000	-7.286361	0.000000	35	26.305	0.000000
	3.515000	-7.171163	0.000000	35	26.302	0.000000
	3.610000	-7.058700	0.000000	35	26.3	0.000000
	3.705000	-6.963968	0.000000	35	26.303	0.000000
	3.800000	-6.871465	0.000000	35	26.301	0.000000
	3.895000	-6.787473	0.000000	35	26.3	0.000000
	3.990000	-6.706115	0.000000	35	26.301	0.000000
	4.085000	-6.637320	0.000000	35	26.299	0.000000
	4.180000	-6.573693	0.000000	35	26.3	0.000000
	4.275000	-6.516043	0.000000	35	26.3	0.000000
	4.370000	-6.457785	0.000000	35	26.301	0.000000
	4.465000	-6.412091	0.000000	35	26.3	0.000000
	4.560000	-6.363965	0.000000	35	26.3	0.000000
	4.655000	-6.321918	0.000000	35	26.3	0.000000
	4.750000	-6.282911	0.000000	35	26.3	0.000000
	4.845000	-6.247450	0.000000	35	26.301	0.000000
	4.940000	-6.211685	0.000000	35	26.301	0.000000
	5.035000	-6.180681	0.000000	35	26.3	0.000000
	5.130000	-6.151907	0.000000	35	26.3	0.000000
	5.225000	-6.125666	0.000000	35	26.3	0.000000
	5.320000	-6.100235	0.000000	35	26.3	0.000000
	5.415000	-6.076426	0.000000	35	26.3	0.000000
	5.510000	-6.053123	0.000000	35	26.3	0.000000
	5.605000	-6.031238	0.000000	35	26.3	0.000000
	5.700000	-6.013001	0.000000	35	26.301	0.000000
	5.795000	-5.994865	0.000000	35	26.301	0.000000
	5.890000	-5.975817	0.000000	35	26.302	0.000000
	5.985000	-5.957276	0.000000	35	26.302	0.000000
	6.080000	-5.940255	0.000000	35	26.303	0.000000
	6.175000	-5.925158	0.000000	35	26.301	0.000000
	6.270000	-5.910670	0.000000	35	26.302	0.000000
	6.365000	-5.897803	0.000000	35	26.303	0.000000
	6.460000	-5.883111	0.000000	35	26.303	0.000000
	6.555000	-5.872473	0.000000	35	26.304	0.000000
	6.650000	-5.859504	0.000000	35	26.303	0.000000
	6.745000	-5.845320	0.000000	35	26.303	0.000000
	6.840000	-5.834479	0.000000	35	26.303	0.000000
	6.935000	-5.823638	0.000000	35	26.304	0.000000
	7.030000	-5.812493	0.000000	35	26.302	0.000000
	7.125000	-5.803982	0.000000	35	26.303	0.000000
	7.220000	-5.796586	0.000000	35	26.303	0.000000
	7.315000	-5.786353	0.000000	35	26.304	0.000000
	7.410000	-5.779362	0.000000	35	26.304	0.000000
	7.505000	-5.774296	0.000000	35	26.305	0.000000
	7.600000	-5.766799	0.000000	35	26.305	0.000000
	7.695000	-5.757883	0.000000	35	26.305	0.000000
	7.790000	-5.754235	0.000000	35	26.307	0.000000
	7.885000	-5.747346	0.000000	35	26.306	0.000000
	7.980000	-5.738430	0.000000	35	26.305	0.000000
	8.075000	-5.732047	0.000000	35	26.306	0.000000
	8.170000	-5.724549	0.000000	35	26.307	0.000000
	8.265000	-5.718774	0.000000	35	26.305	0.000000
	8.360000	-5.713607	0.000000	35	26.305	0.000000
	8.455000	-5.708237	0.000000	35	26.307	0.000000
	8.550000	-5.703374	0.000000	35	26.306	0.000000
	8.645000	-5.695167	0.000000	35	26.308	0.000000
	8.740000	-5.691418	0.000000	35	26.308	0.000000
	8.835000	-5.686555	0.000000	35	26.308	0.000000
	8.930000	-5.681489	0.000000	35	26.308	0.000000
	9.025000	-5.675512	0.000000	35	26.308	0.000000
	9.120000	-5.670446	0.000000	35	26.308	0.000000
	9.215000	-5.668115	0.000000	35	26.309	0.000000
	9.310000	-5.661124	0.000000	35	26.308	0.000000
	9.405000	-5.660719	0.000000	35	26.309	0.000000
	9.500000	-5.656869	0.000000	35	26.309	0.000000
	9.595000	-5.653323	0.000000	35	26.309	0.000000
	9.690000	-5.649270	0.000000	35	26.309	0.000000
	9.785000	-5.646737	0.000000	35	26.31	0.000000
	9.880000	-5.644204	0.000000	35	26.309	0.000000
	9.975000	-5.641773	0.000000	35	26.31	0.000000
	10.07	-5.636910	0.000000	35	26.309	0.000000
	10.165	-5.633262	0.000000	35	26.31	0.000000
	10.26	-5.630121	0.000000	35	26.311	0.000000
	10.355	-5.628601	0.000000	35	26.313	0.000000
	10.45	-5.621712	0.000000	35	26.311	0.000000
	10.545	-5.618875	0.000000	35	26.312	0.000000
	10.64	-5.617153	0.000000	35	26.312	0.000000
	10.735	-5.609047	0.000000	35	26.31	0.000000
	10.83	-5.606312	0.000000	35	26.312	0.000000
	10.925	-5.604691	0.000000	35	26.312	0.000000
	11.02	-5.596788	0.000000	35	26.312	0.000000
	11.115	-5.593546	0.000000	35	26.316	0.000000
	11.21	-5.591114	0.000000	35	26.315	0.000000
	11.305	-5.585238	0.000000	35	26.315	0.000000
	11.4	-5.585744	0.000000	35	26.314	0.000000
	11.495	-5.584123	0.000000	35	26.312	0.000000
	11.59	-5.576929	0.000000	35	26.314	0.000000
	11.685	-5.577233	0.000000	35	26.314	0.000000
	11.78	-5.576018	0.000000	35	26.313	0.000000
	11.875	-5.575004	0.000000	35	26.315	0.000000
	11.97	-5.571560	0.000000	35	26.314	0.000000
	12.065	-5.570141	0.000000	35	26.314	0.000000
	12.16	-5.568621	0.000000	35	26.314	0.000000
	12.255	-5.564771	0.000000	35	26.317	0.000000
	12.35	-5.562542	0.000000	35	26.316	0.000000
	12.445	-5.564265	0.000000	35	26.315	0.000000
	12.54	-5.558996	0.000000	35	26.314	0.000000
	12.635	-5.558490	0.000000	35	26.317	0.000000
	12.73	-5.552613	0.000000	35	26.315	0.000000
	12.825	-5.551296	0.000000	35	26.316	0.000000
	12.92	-5.549371	0.000000	35	26.316	0.000000
[...]
	16.72	-5.512694	0.000000	35	26.322	0.000000
	16.815	-5.510262	0.000000	35	26.323	0.000000
	16.91	-5.512491	0.000000	35	26.321	0.000000
	17.005	-5.512390	0.000000	35	26.324	0.000000
	17.1	-5.511478	0.000000	35	26.323	0.000000
	17.195	-5.510566	0.000000	35	26.324	0.000000
	17.29	-5.508540	0.000000	35	26.322	0.000000
	17.385	-5.508540	0.000000	35	26.323	0.000000
	17.48	-5.506514	0.000000	35	26.324	0.000000
	17.575	-5.504082	0.000000	35	26.324	0.000000
	17.67	-5.500232	0.000000	35	26.324	0.000000
	17.765	-5.501144	0.000000	35	26.323	0.000000
	17.86	-5.497699	0.000000	35	26.325	0.000000
	17.955	-5.496078	0.000000	35	26.323	0.000000
	18.05	-5.495166	0.000000	35	26.323	0.000000
	18.145	-5.495065	0.000000	35	26.323	0.000000
	18.24	-5.490708	0.000000	35	26.323	0.000000
	18.335	-5.490303	0.000000	35	26.323	0.000000
	18.43	-5.488884	0.000000	35	26.325	0.000000
	18.525	-5.486149	0.000000	35	26.323	0.000000
	18.62	-5.489188	0.000000	35	26.324	0.000000
	18.715	-5.487365	0.000000	35	26.324	0.000000
	18.81	-5.488175	0.000000	35	26.322	0.000000
	18.905	-5.486453	0.000000	35	26.324	0.000000
	19	-5.489188	0.000000	35	26.325	0.000000
	19.095	-5.489999	0.000000	35	26.325	0.000000
	19.19	-5.493038	0.000000	35	26.323	0.000000
	19.285	-5.493646	0.000000	35	26.324	0.000000
	19.38	-5.493444	0.000000	35	26.325	0.000000
	19.475	-5.494457	0.000000	35	26.326	0.000000
	19.57	-5.493444	0.000000	35	26.324	0.000000
	19.665	-5.492532	0.000000	35	26.324	0.000000
	19.76	-5.492735	0.000000	35	26.325	0.000000
	19.855	-5.492431	0.000000	35	26.325	0.000000
	19.95	-5.495774	0.000000	35	26.325	0.000000
	19.9992	-5.498003	0.000000	35	26.326	0.000000

	TEMPERATURE CALIBRATION INPUTS:
Calibration Type:    	Two-point Calibration

Reference	Expected (¡ÆC)	Measured (¡ÆC)	Method
Indium          	 156.600	 158.260	 Indium standard 	Used
Zinc            	 419.470	 406.600	 Zinc standard   	Used
                	   0.000	   0.000	                 	Not Used
                	   0.000	   0.000	                 	Not Used
                	   0.000	   0.000	                 	Not Used
                	   0.000	   0.000	                 	Not Used
                	   0.000	   0.000	                 	Not Used
                	   0.000	   0.000	                 	Not Used
                	   0.000	   0.000	                 	Not Used
                	   0.000	   0.000	                 	Not Used
	MULTI-POINT VALUES:
Offsets (¡ÆC)	Slopes	Boundaries (¡ÆC)
  -2.617	   1.072	   0.000
  -2.617	   1.072	 148.580
  -2.617	   1.072	 393.887
  -2.617	   1.072	 393.887
  -2.617	   1.072	 393.887
  -2.617	   1.072	 393.887
  -2.617	   1.072	 393.887
  -2.617	   1.072	 393.887
  -2.617	   1.072	 393.887
  -2.617	   1.072	 393.887
  -2.617	   1.072	 393.887

NEWPAGE

	DSC HEAT FLOW CALIBRATION INPUTS:
Range: Low (320 mW)
Reference Material:	Indium
Expected Enthalpy:	  28.450 J/g	Measured Enthalpy:	  27.750 J/g
Weight:	  23.520 mg	Method:	IndCal

	DSC HEAT FLOW CALIBRATION COMPUTED RESULTS:
Range: Low (320 mW)
Low Range Factor	   1.025	Date:	2/22/2021 1:52:03 PM

	FURNACE CALIBRATION INPUTS:
Minimum	  20.000 ¡ÆC
Maximum	 450.000 ¡ÆC

	FURNACE CALIBRATION COMPUTED RESULTS:
Date:	10/19/2017 11:37:53 AM
Offset	  -9.310 ¡ÆC
Factor	   1.040

	PROFILE VALUES FOR THIS DATA:

Software Version	5.00.02
Firmware Version	Part Number N5378059  Revision 64
Instrument Serial Number
Load Temperature	35.0 ¡ÆC
Go To Temp Rate	200.0 ¡ÆC/min
Maximum Allowed Temperature	500.0 ¡ÆC
Helium Purge	Was Not Used
Liquid Nitrogen	Was Not Used
Data taken using the	High Range
Filter Factor	3
Lag Compensation	0
Cooling Device	Water Bath
10 Second Delay	Was Not Used

File: 80 mW 4 noncont.txt
Filename:	C:\Documents and Settings\SOON KI\Desktop\Tanner\Oligomer in EEC 6-11-21\Lightintensity PHEA-coBA in EEC 6-17-21\80 mW 4 noncont.dcd
Operator ID:	AK
Sample ID:	Epoxy w/ P(HEA-coBA) 1 noncont
Comment:	5 minutes of light at 80.50 mW/cm2
Serial Number:
Data Collected:	6/17/2021 3:48:27 PM
Sample Weight:	1.990 mg
Validation
Validated:	No
By:
Date:
Calibration Information
Filename:	C:\Program Files\Pyris\Calibrations\Indium Temperature Calibration 2-22-2021 TG.dcc
Date/Time:
Initial Conditions
Temperature:
Y Initial:
Sample Rate:
Baseline Filename:
End Condition:	Go To Load
Total Points in Run:	24000
Method Steps:
Pre-Run Actions
	Start the Run
		Action occurs Immediately
	Switch the Gas to Nitrogen at 20.0 ml/min
		Action occurs Immediately
1)	Hold for 20.0 min at 35.00¡ÆC

1) DSC Isothermal	Time	Unsubtracted Heat Flow	Baseline Heat Flow	ProgramTemperature	Sample Temperature	Approx. Gas Flow
	0.000000	0.000608	0.000000	35	25.85	0.000000
	0.095000	0.006079	0.000000	35	25.849	0.000000
	0.190000	0.010233	0.000000	35	25.847	0.000000
	0.285000	0.013779	0.000000	35	25.847	0.000000
	0.380000	0.019960	0.000000	35	25.848	0.000000
	0.475000	0.023911	0.000000	35	25.848	0.000000
	0.570000	0.027153	0.000000	35	25.847	0.000000
	0.665000	0.028673	0.000000	35	25.845	0.000000
	0.760000	0.031712	0.000000	35	25.847	0.000000
	0.855000	0.037893	0.000000	35	25.846	0.000000
	0.950000	0.041236	0.000000	35	25.846	0.000000
	1.045000	-1.475894	0.000000	35	25.862	0.000000
	1.140000	-22.5704	0.000000	35	26.15	0.000000
	1.235000	-11.8437	0.000000	35	26.244	0.000000
	1.330000	-9.508764	0.000000	35	26.266	0.000000
	1.425000	-8.742296	0.000000	35	26.27	0.000000
	1.520000	-8.354857	0.000000	35	26.271	0.000000
	1.615000	-8.070155	0.000000	35	26.271	0.000000
	1.710000	-7.823142	0.000000	35	26.269	0.000000
	1.805000	-7.602877	0.000000	35	26.269	0.000000
	1.900000	-7.403079	0.000000	35	26.267	0.000000
	1.995000	-7.213007	0.000000	35	26.267	0.000000
	2.090000	-7.036512	0.000000	35	26.269	0.000000
	2.185000	-6.870857	0.000000	35	26.266	0.000000
	2.280000	-6.712093	0.000000	35	26.267	0.000000
	2.375000	-6.562649	0.000000	35	26.265	0.000000
	2.470000	-6.418069	0.000000	35	26.263	0.000000
	2.565000	-6.282202	0.000000	35	26.265	0.000000
	2.660000	-6.150691	0.000000	35	26.263	0.000000
	2.755000	-6.029414	0.000000	35	26.263	0.000000
	2.850000	-5.911379	0.000000	35	26.265	0.000000
	2.945000	-5.799018	0.000000	35	26.265	0.000000
	3.040000	-5.691925	0.000000	35	26.264	0.000000
	3.135000	-5.594356	0.000000	35	26.262	0.000000
	3.230000	-5.502461	0.000000	35	26.264	0.000000
	3.325000	-5.417354	0.000000	35	26.264	0.000000
	3.420000	-5.337313	0.000000	35	26.263	0.000000
	3.515000	-5.266695	0.000000	35	26.263	0.000000
	3.610000	-5.199319	0.000000	35	26.263	0.000000
	3.705000	-5.138933	0.000000	35	26.263	0.000000
	3.800000	-5.086957	0.000000	35	26.263	0.000000
	3.895000	-5.035792	0.000000	35	26.264	0.000000
	3.990000	-4.991921	0.000000	35	26.265	0.000000
	4.085000	-4.950482	0.000000	35	26.262	0.000000
	4.180000	-4.915224	0.000000	35	26.266	0.000000
	4.275000	-4.878952	0.000000	35	26.264	0.000000
	4.370000	-4.851799	0.000000	35	26.264	0.000000
	4.465000	-4.823329	0.000000	35	26.265	0.000000
	4.560000	-4.797999	0.000000	35	26.265	0.000000
	4.655000	-4.777736	0.000000	35	26.265	0.000000
	4.750000	-4.754433	0.000000	35	26.266	0.000000
	4.845000	-4.734980	0.000000	35	26.266	0.000000
	4.940000	-4.716743	0.000000	35	26.267	0.000000
	5.035000	-4.701140	0.000000	35	26.266	0.000000
	5.130000	-4.687259	0.000000	35	26.267	0.000000
	5.225000	-4.671859	0.000000	35	26.268	0.000000
	5.320000	-4.658688	0.000000	35	26.267	0.000000
	5.415000	-4.647441	0.000000	35	26.268	0.000000
	5.510000	-4.633358	0.000000	35	26.268	0.000000
	5.605000	-4.624645	0.000000	35	26.269	0.000000
	5.700000	-4.611473	0.000000	35	26.271	0.000000
	5.795000	-4.603064	0.000000	35	26.271	0.000000
	5.890000	-4.594047	0.000000	35	26.271	0.000000
	5.985000	-4.585637	0.000000	35	26.269	0.000000
	6.080000	-0.168187	0.000000	35	26.093	0.000000
	6.175000	-0.396557	0.000000	35	25.968	0.000000
	6.270000	-0.388756	0.000000	35	25.923	0.000000
	6.365000	-0.380752	0.000000	35	25.893	0.000000
	6.460000	-0.374875	0.000000	35	25.886	0.000000
	6.555000	-0.368492	0.000000	35	25.882	0.000000
	6.650000	-0.362211	0.000000	35	25.881	0.000000
	6.745000	-0.355220	0.000000	35	25.878	0.000000
	6.840000	-0.347520	0.000000	35	25.88	0.000000
	6.935000	-0.342555	0.000000	35	25.878	0.000000
	7.030000	-0.336983	0.000000	35	25.877	0.000000
	7.125000	-0.331207	0.000000	35	25.874	0.000000
	7.220000	-0.324014	0.000000	35	25.877	0.000000
	7.315000	-0.317935	0.000000	35	25.877	0.000000
	7.410000	-0.312362	0.000000	35	25.875	0.000000
	7.505000	-0.303953	0.000000	35	25.876	0.000000
	7.600000	-0.299191	0.000000	35	25.873	0.000000
	7.695000	-0.293923	0.000000	35	25.876	0.000000
	7.790000	-0.286830	0.000000	35	25.873	0.000000
	7.885000	-0.283487	0.000000	35	25.872	0.000000
	7.980000	-0.276192	0.000000	35	25.874	0.000000
	8.075000	-0.270721	0.000000	35	25.87	0.000000
	8.170000	-0.265351	0.000000	35	25.871	0.000000
	8.265000	-0.260184	0.000000	35	25.87	0.000000
	8.360000	-0.254510	0.000000	35	25.87	0.000000
	8.455000	-0.250964	0.000000	35	25.87	0.000000
	8.550000	-0.247823	0.000000	35	25.868	0.000000
	8.645000	-0.241136	0.000000	35	25.87	0.000000
	8.740000	-0.238603	0.000000	35	25.869	0.000000
	8.835000	-0.233233	0.000000	35	25.869	0.000000
	8.930000	-0.229282	0.000000	35	25.869	0.000000
	9.025000	-0.224013	0.000000	35	25.867	0.000000
	9.120000	-0.218644	0.000000	35	25.866	0.000000
	9.215000	-0.214996	0.000000	35	25.867	0.000000
	9.310000	-0.211957	0.000000	35	25.867	0.000000
	9.405000	-0.206283	0.000000	35	25.866	0.000000
	9.500000	-0.203547	0.000000	35	25.867	0.000000
	9.595000	-0.198380	0.000000	35	25.865	0.000000
	9.690000	-0.195138	0.000000	35	25.866	0.000000
	9.785000	-0.190477	0.000000	35	25.865	0.000000
	9.880000	-0.186728	0.000000	35	25.865	0.000000
	9.975000	-0.183385	0.000000	35	25.865	0.000000
	10.07	-0.178420	0.000000	35	25.865	0.000000
	10.165	-0.174368	0.000000	35	25.864	0.000000
	10.26	-0.170518	0.000000	35	25.864	0.000000
	10.355	-0.168998	0.000000	35	25.863	0.000000
	10.45	-0.163932	0.000000	35	25.862	0.000000
	10.545	-0.160791	0.000000	35	25.863	0.000000
	10.64	-0.156536	0.000000	35	25.863	0.000000
	10.735	-0.154307	0.000000	35	25.862	0.000000
	10.83	-0.150558	0.000000	35	25.862	0.000000
	10.925	-0.147012	0.000000	35	25.86	0.000000
	11.02	-0.143770	0.000000	35	25.862	0.000000
	11.115	-0.140224	0.000000	35	25.861	0.000000
	11.21	-0.136272	0.000000	35	25.862	0.000000
	11.305	-0.134752	0.000000	35	25.859	0.000000
	11.4	-0.132726	0.000000	35	25.861	0.000000
	11.495	-0.128268	0.000000	35	25.86	0.000000
	11.59	-0.126242	0.000000	35	25.861	0.000000
	11.685	-0.123912	0.000000	35	25.858	0.000000
	11.78	-0.121480	0.000000	35	25.858	0.000000
	11.875	-0.118542	0.000000	35	25.86	0.000000
	11.97	-0.116009	0.000000	35	25.859	0.000000
	12.065	-0.112868	0.000000	35	25.859	0.000000
	12.16	-0.111247	0.000000	35	25.859	0.000000
	12.255	-0.107194	0.000000	35	25.859	0.000000
	12.35	-0.104459	0.000000	35	25.859	0.000000
	12.445	-0.102635	0.000000	35	25.859	0.000000
	12.54	-0.099089	0.000000	35	25.857	0.000000
	12.635	-0.095847	0.000000	35	25.858	0.000000
	12.73	-0.094428	0.000000	35	25.858	0.000000
[...]
	16.625	-0.016110	0.000000	35	25.847	0.000000
	16.72	-0.015907	0.000000	35	25.849	0.000000
	16.815	-0.014590	0.000000	35	25.849	0.000000
	16.91	-0.013171	0.000000	35	25.85	0.000000
	17.005	-0.010537	0.000000	35	25.85	0.000000
	17.1	-0.011449	0.000000	35	25.847	0.000000
	17.195	-0.008713	0.000000	35	25.847	0.000000
	17.29	-0.007700	0.000000	35	25.847	0.000000
	17.385	-0.006282	0.000000	35	25.846	0.000000
	17.48	-0.004357	0.000000	35	25.849	0.000000
	17.575	-0.002736	0.000000	35	25.848	0.000000
	17.67	-0.002229	0.000000	35	25.847	0.000000
	17.765	0.002330	0.000000	35	25.846	0.000000
	17.86	0.002634	0.000000	35	25.848	0.000000
	17.955	0.004559	0.000000	35	25.847	0.000000
	18.05	0.004661	0.000000	35	25.847	0.000000
	18.145	0.006383	0.000000	35	25.846	0.000000
	18.24	0.009017	0.000000	35	25.847	0.000000
	18.335	0.010030	0.000000	35	25.847	0.000000
	18.43	0.011550	0.000000	35	25.845	0.000000
	18.525	0.012158	0.000000	35	25.844	0.000000
	18.62	0.014792	0.000000	35	25.847	0.000000
	18.715	0.016008	0.000000	35	25.844	0.000000
	18.81	0.019250	0.000000	35	25.845	0.000000
	18.905	0.020061	0.000000	35	25.845	0.000000
	19	0.020365	0.000000	35	25.845	0.000000
	19.095	0.022087	0.000000	35	25.844	0.000000
	19.19	0.024823	0.000000	35	25.844	0.000000
	19.285	0.023708	0.000000	35	25.842	0.000000
	19.38	0.026647	0.000000	35	25.843	0.000000
	19.475	0.026748	0.000000	35	25.843	0.000000
	19.57	0.028876	0.000000	35	25.846	0.000000
	19.665	0.029889	0.000000	35	25.845	0.000000
	19.76	0.031408	0.000000	35	25.843	0.000000
	19.855	0.031510	0.000000	35	25.843	0.000000
	19.95	0.033232	0.000000	35	25.844	0.000000
	19.9992	0.033435	0.000000	35	25.844	0.000000

	TEMPERATURE CALIBRATION INPUTS:
Calibration Type:    	Two-point Calibration

Reference	Expected (¡ÆC)	Measured (¡ÆC)	Method
Indium          	 156.600	 158.260	 Indium standard 	Used
Zinc            	 419.470	 406.600	 Zinc standard   	Used
                	   0.000	   0.000	                 	Not Used
                	   0.000	   0.000	                 	Not Used
                	   0.000	   0.000	                 	Not Used
                	   0.000	   0.000	                 	Not Used
                	   0.000	   0.000	                 	Not Used
                	   0.000	   0.000	                 	Not Used
                	   0.000	   0.000	                 	Not Used
                	   0.000	   0.000	                 	Not Used
	MULTI-POINT VALUES:
Offsets (¡ÆC)	Slopes	Boundaries (¡ÆC)
  -2.617	   1.072	   0.000
  -2.617	   1.072	 148.580
  -2.617	   1.072	 393.887
  -2.617	   1.072	 393.887
  -2.617	   1.072	 393.887
  -2.617	   1.072	 393.887
  -2.617	   1.072	 393.887
  -2.617	   1.072	 393.887
  -2.617	   1.072	 393.887
  -2.617	   1.072	 393.887
  -2.617	   1.072	 393.887

NEWPAGE

	DSC HEAT FLOW CALIBRATION INPUTS:
Range: Low (320 mW)
Reference Material:	Indium
Expected Enthalpy:	  28.450 J/g	Measured Enthalpy:	  27.750 J/g
Weight:	  23.520 mg	Method:	IndCal

	DSC HEAT FLOW CALIBRATION COMPUTED RESULTS:
Range: Low (320 mW)
Low Range Factor	   1.025	Date:	2/22/2021 1:52:03 PM

	FURNACE CALIBRATION INPUTS:
Minimum	  20.000 ¡ÆC
Maximum	 450.000 ¡ÆC

	FURNACE CALIBRATION COMPUTED RESULTS:
Date:	10/19/2017 11:37:53 AM
Offset	  -9.310 ¡ÆC
Factor	   1.040

	PROFILE VALUES FOR THIS DATA:

Software Version	5.00.02
Firmware Version	Part Number N5378059  Revision 64
Instrument Serial Number
Load Temperature	35.0 ¡ÆC
Go To Temp Rate	200.0 ¡ÆC/min
Maximum Allowed Temperature	500.0 ¡ÆC
Helium Purge	Was Not Used
Liquid Nitrogen	Was Not Used
Data taken using the	High Range
Filter Factor	3
Lag Compensation	0
Cooling Device	Water Bath
10 Second Delay	Was Not Used